"ITO_020PER_3.spc - RawData"
"”g’· (nm)","T%"
350.00,62.885
351.00,63.548
352.00,64.534
353.00,65.487
354.00,66.397
355.00,67.224
356.00,67.949
357.00,68.642
358.00,69.251
359.00,69.832
360.00,70.362
361.00,70.920
362.00,71.436
363.00,71.887
364.00,72.286
365.00,72.627
366.00,72.957
367.00,73.233
368.00,73.453
369.00,73.631
370.00,73.778
371.00,73.895
372.00,73.891
373.00,73.844
374.00,73.777
375.00,73.771
376.00,73.775
377.00,73.773
378.00,73.792
379.00,73.823
380.00,73.878
381.00,73.957
382.00,74.051
383.00,74.172
384.00,74.329
385.00,74.477
386.00,74.648
387.00,74.812
388.00,74.949
389.00,75.075
390.00,75.160
391.00,75.286
392.00,75.411
393.00,75.527
394.00,75.631
395.00,75.690
396.00,75.766
397.00,75.822
398.00,75.924
399.00,75.994
400.00,76.071
401.00,76.104
402.00,76.161
403.00,76.218
404.00,76.249
405.00,76.274
406.00,76.306
407.00,76.354
408.00,76.439
409.00,76.505
410.00,76.583
411.00,76.623
412.00,76.672
413.00,76.737
414.00,76.814
415.00,76.887
416.00,76.974
417.00,77.065
418.00,77.158
419.00,77.270
420.00,77.385
421.00,77.531
422.00,77.651
423.00,77.773
424.00,77.887
425.00,78.003
426.00,78.117
427.00,78.223
428.00,78.359
429.00,78.479
430.00,78.655
431.00,78.793
432.00,78.957
433.00,79.048
434.00,79.162
435.00,79.272
436.00,79.398
437.00,79.483
438.00,79.566
439.00,79.624
440.00,79.712
441.00,79.811
442.00,79.944
443.00,80.080
444.00,80.204
445.00,80.325
446.00,80.446
447.00,80.567
448.00,80.713
449.00,80.856
450.00,81.017
451.00,81.145
452.00,81.295
453.00,81.438
454.00,81.594
455.00,81.749
456.00,81.907
457.00,82.051
458.00,82.202
459.00,82.329
460.00,82.470
461.00,82.607
462.00,82.758
463.00,82.920
464.00,83.052
465.00,83.204
466.00,83.344
467.00,83.500
468.00,83.693
469.00,83.886
470.00,84.114
471.00,84.286
472.00,84.460
473.00,84.613
474.00,84.776
475.00,84.956
476.00,85.103
477.00,85.246
478.00,85.370
479.00,85.498
480.00,85.614
481.00,85.743
482.00,85.848
483.00,85.938
484.00,86.033
485.00,86.148
486.00,86.288
487.00,86.407
488.00,86.526
489.00,86.631
490.00,86.729
491.00,86.855
492.00,86.948
493.00,87.057
494.00,87.136
495.00,87.251
496.00,87.343
497.00,87.446
498.00,87.545
499.00,87.651
500.00,87.727
501.00,87.819
502.00,87.938
503.00,88.079
504.00,88.178
505.00,88.264
506.00,88.355
507.00,88.446
508.00,88.542
509.00,88.627
510.00,88.741
511.00,88.857
512.00,88.965
513.00,89.068
514.00,89.150
515.00,89.253
516.00,89.338
517.00,89.431
518.00,89.511
519.00,89.571
520.00,89.628
521.00,89.684
522.00,89.781
523.00,89.888
524.00,89.989
525.00,90.070
526.00,90.133
527.00,90.187
528.00,90.244
529.00,90.289
530.00,90.346
531.00,90.393
532.00,90.452
533.00,90.493
534.00,90.526
535.00,90.566
536.00,90.607
537.00,90.676
538.00,90.720
539.00,90.758
540.00,90.801
541.00,90.864
542.00,90.935
543.00,90.980
544.00,91.026
545.00,91.081
546.00,91.142
547.00,91.173
548.00,91.206
549.00,91.248
550.00,91.259
551.00,91.274
552.00,91.262
553.00,91.338
554.00,91.388
555.00,91.431
556.00,91.434
557.00,91.452
558.00,91.477
559.00,91.510
560.00,91.537
561.00,91.532
562.00,91.515
563.00,91.497
564.00,91.548
565.00,91.590
566.00,91.657
567.00,91.699
568.00,91.734
569.00,91.760
570.00,91.790
571.00,91.839
572.00,91.900
573.00,91.927
574.00,91.918
575.00,91.888
576.00,91.872
577.00,91.882
578.00,91.850
579.00,91.825
580.00,91.753
581.00,91.691
582.00,91.607
583.00,91.537
584.00,91.447
585.00,91.367
586.00,91.275
587.00,91.246
588.00,91.205
589.00,91.178
590.00,91.124
591.00,91.083
592.00,91.061
593.00,91.052
594.00,91.025
595.00,90.995
596.00,90.955
597.00,90.931
598.00,90.913
599.00,90.882
600.00,90.858
601.00,90.845
602.00,90.820
603.00,90.831
604.00,90.829
605.00,90.867
606.00,90.890
607.00,90.904
608.00,90.926
609.00,90.942
610.00,91.008
611.00,91.056
612.00,91.102
613.00,91.132
614.00,91.195
615.00,91.238
616.00,91.281
617.00,91.300
618.00,91.340
619.00,91.336
620.00,91.331
621.00,91.327
622.00,91.329
623.00,91.315
624.00,91.292
625.00,91.273
626.00,91.241
627.00,91.181
628.00,91.127
629.00,91.077
630.00,91.039
631.00,91.007
632.00,91.017
633.00,91.013
634.00,91.007
635.00,90.984
636.00,90.983
637.00,90.964
638.00,90.930
639.00,90.917
640.00,90.897
641.00,90.877
642.00,90.829
643.00,90.810
644.00,90.787
645.00,90.783
646.00,90.751
647.00,90.730
648.00,90.703
649.00,90.675
650.00,90.642
651.00,90.614
652.00,90.582
653.00,90.523
654.00,90.441
655.00,90.392
656.00,90.353
657.00,90.308
658.00,90.242
659.00,90.176
660.00,90.119
661.00,90.046
662.00,89.995
663.00,89.961
664.00,89.967
665.00,89.962
666.00,89.938
667.00,89.918
668.00,89.934
669.00,89.925
670.00,89.893
671.00,89.848
672.00,89.858
673.00,89.882
674.00,89.909
675.00,89.884
676.00,89.868
677.00,89.838
678.00,89.837
679.00,89.837
680.00,89.836
681.00,89.844
682.00,89.828
683.00,89.818
684.00,89.821
685.00,89.833
686.00,89.802
687.00,89.756
688.00,89.695
689.00,89.683
690.00,89.641
691.00,89.624
692.00,89.557
693.00,89.536
694.00,89.487
695.00,89.492
696.00,89.478
697.00,89.499
698.00,89.477
699.00,89.464
700.00,89.463
701.00,89.479
702.00,89.517
703.00,89.490
704.00,89.456
705.00,89.400
706.00,89.371
707.00,89.334
708.00,89.287
709.00,89.243
710.00,89.209
711.00,89.192
712.00,89.166
713.00,89.146
714.00,89.093
715.00,89.049
716.00,89.035
717.00,89.020
718.00,89.004
719.00,88.980
720.00,88.952
721.00,88.916
722.00,88.883
723.00,88.876
724.00,88.894
725.00,88.849
726.00,88.803
727.00,88.715
728.00,88.693
729.00,88.652
730.00,88.634
731.00,88.593
732.00,88.568
733.00,88.568
734.00,88.553
735.00,88.534
736.00,88.490
737.00,88.432
738.00,88.371
739.00,88.361
740.00,88.377
741.00,88.389
742.00,88.373
743.00,88.380
744.00,88.379
745.00,88.316
746.00,88.272
747.00,88.250
748.00,88.252
749.00,88.231
750.00,88.202
751.00,88.157
752.00,88.104
753.00,88.025
754.00,88.022
755.00,88.018
756.00,88.036
757.00,88.012
758.00,87.967
759.00,87.923
760.00,87.882
761.00,87.866
762.00,87.877
763.00,87.868
764.00,87.855
765.00,87.822
766.00,87.842
767.00,87.827
768.00,87.824
769.00,87.797
770.00,87.776
771.00,87.781
772.00,87.780
773.00,87.811
774.00,87.747
775.00,87.701
776.00,87.651
777.00,87.667
778.00,87.668
779.00,87.641
780.00,87.621
781.00,87.573
782.00,87.559
783.00,87.543
784.00,87.583
785.00,87.619
786.00,87.649
787.00,87.628
788.00,87.599
789.00,87.595
790.00,87.609
791.00,87.621
792.00,87.598
793.00,87.566
794.00,87.547
795.00,87.562
796.00,87.567
797.00,87.523
798.00,87.473
799.00,87.416
800.00,87.406
