"ITO_100PER_true1.spc - RawData"
"”g’· (nm)","T%"
350.00,18.191
351.00,18.303
352.00,18.471
353.00,18.642
354.00,18.812
355.00,18.971
356.00,19.126
357.00,19.279
358.00,19.443
359.00,19.609
360.00,19.777
361.00,19.943
362.00,20.108
363.00,20.276
364.00,20.446
365.00,20.605
366.00,20.772
367.00,20.936
368.00,21.109
369.00,21.270
370.00,21.435
371.00,21.604
372.00,21.843
373.00,22.092
374.00,22.344
375.00,22.535
376.00,22.734
377.00,22.931
378.00,23.149
379.00,23.369
380.00,23.603
381.00,23.844
382.00,24.093
383.00,24.360
384.00,24.640
385.00,24.923
386.00,25.200
387.00,25.464
388.00,25.727
389.00,25.985
390.00,26.244
391.00,26.493
392.00,26.746
393.00,26.984
394.00,27.219
395.00,27.437
396.00,27.652
397.00,27.857
398.00,28.065
399.00,28.254
400.00,28.438
401.00,28.613
402.00,28.786
403.00,28.965
404.00,29.116
405.00,29.268
406.00,29.406
407.00,29.557
408.00,29.706
409.00,29.846
410.00,29.980
411.00,30.105
412.00,30.226
413.00,30.354
414.00,30.473
415.00,30.595
416.00,30.698
417.00,30.793
418.00,30.879
419.00,30.967
420.00,31.057
421.00,31.148
422.00,31.231
423.00,31.315
424.00,31.397
425.00,31.481
426.00,31.551
427.00,31.627
428.00,31.704
429.00,31.784
430.00,31.855
431.00,31.917
432.00,31.985
433.00,32.048
434.00,32.126
435.00,32.194
436.00,32.263
437.00,32.329
438.00,32.394
439.00,32.467
440.00,32.532
441.00,32.617
442.00,32.687
443.00,32.765
444.00,32.844
445.00,32.928
446.00,33.009
447.00,33.083
448.00,33.166
449.00,33.253
450.00,33.340
451.00,33.423
452.00,33.519
453.00,33.611
454.00,33.707
455.00,33.794
456.00,33.904
457.00,34.021
458.00,34.148
459.00,34.267
460.00,34.385
461.00,34.512
462.00,34.643
463.00,34.779
464.00,34.904
465.00,35.033
466.00,35.161
467.00,35.296
468.00,35.436
469.00,35.569
470.00,35.720
471.00,35.860
472.00,36.016
473.00,36.162
474.00,36.321
475.00,36.483
476.00,36.636
477.00,36.790
478.00,36.946
479.00,37.115
480.00,37.277
481.00,37.440
482.00,37.603
483.00,37.775
484.00,37.936
485.00,38.099
486.00,38.264
487.00,38.433
488.00,38.608
489.00,38.782
490.00,38.954
491.00,39.136
492.00,39.325
493.00,39.519
494.00,39.700
495.00,39.881
496.00,40.076
497.00,40.270
498.00,40.457
499.00,40.641
500.00,40.820
501.00,41.008
502.00,41.213
503.00,41.430
504.00,41.643
505.00,41.840
506.00,42.048
507.00,42.245
508.00,42.452
509.00,42.646
510.00,42.857
511.00,43.072
512.00,43.284
513.00,43.500
514.00,43.707
515.00,43.921
516.00,44.137
517.00,44.362
518.00,44.583
519.00,44.781
520.00,44.978
521.00,45.188
522.00,45.408
523.00,45.625
524.00,45.830
525.00,46.047
526.00,46.258
527.00,46.469
528.00,46.663
529.00,46.846
530.00,47.014
531.00,47.198
532.00,47.387
533.00,47.582
534.00,47.762
535.00,47.929
536.00,48.071
537.00,48.213
538.00,48.356
539.00,48.527
540.00,48.698
541.00,48.861
542.00,49.018
543.00,49.164
544.00,49.318
545.00,49.472
546.00,49.625
547.00,49.783
548.00,49.937
549.00,50.083
550.00,50.229
551.00,50.375
552.00,50.536
553.00,50.683
554.00,50.819
555.00,50.928
556.00,51.052
557.00,51.181
558.00,51.307
559.00,51.432
560.00,51.550
561.00,51.659
562.00,51.760
563.00,51.864
564.00,51.994
565.00,52.122
566.00,52.244
567.00,52.359
568.00,52.446
569.00,52.538
570.00,52.630
571.00,52.730
572.00,52.834
573.00,52.925
574.00,53.020
575.00,53.108
576.00,53.196
577.00,53.287
578.00,53.376
579.00,53.479
580.00,53.583
581.00,53.684
582.00,53.766
583.00,53.861
584.00,53.922
585.00,54.004
586.00,54.069
587.00,54.167
588.00,54.256
589.00,54.340
590.00,54.416
591.00,54.487
592.00,54.553
593.00,54.631
594.00,54.696
595.00,54.773
596.00,54.837
597.00,54.902
598.00,54.965
599.00,55.031
600.00,55.106
601.00,55.198
602.00,55.272
603.00,55.351
604.00,55.416
605.00,55.504
606.00,55.591
607.00,55.671
608.00,55.752
609.00,55.843
610.00,55.941
611.00,56.035
612.00,56.110
613.00,56.190
614.00,56.278
615.00,56.376
616.00,56.474
617.00,56.573
618.00,56.680
619.00,56.775
620.00,56.864
621.00,56.941
622.00,57.021
623.00,57.113
624.00,57.212
625.00,57.293
626.00,57.359
627.00,57.432
628.00,57.512
629.00,57.581
630.00,57.632
631.00,57.682
632.00,57.735
633.00,57.775
634.00,57.809
635.00,57.845
636.00,57.866
637.00,57.904
638.00,57.920
639.00,57.965
640.00,57.988
641.00,58.023
642.00,58.054
643.00,58.079
644.00,58.096
645.00,58.119
646.00,58.146
647.00,58.179
648.00,58.197
649.00,58.222
650.00,58.257
651.00,58.294
652.00,58.321
653.00,58.341
654.00,58.356
655.00,58.384
656.00,58.435
657.00,58.490
658.00,58.557
659.00,58.597
660.00,58.644
661.00,58.687
662.00,58.745
663.00,58.806
664.00,58.869
665.00,58.936
666.00,58.999
667.00,59.076
668.00,59.165
669.00,59.256
670.00,59.336
671.00,59.406
672.00,59.489
673.00,59.585
674.00,59.698
675.00,59.809
676.00,59.924
677.00,60.029
678.00,60.129
679.00,60.238
680.00,60.345
681.00,60.442
682.00,60.528
683.00,60.620
684.00,60.721
685.00,60.804
686.00,60.869
687.00,60.930
688.00,61.010
689.00,61.104
690.00,61.194
691.00,61.273
692.00,61.334
693.00,61.398
694.00,61.457
695.00,61.518
696.00,61.573
697.00,61.634
698.00,61.675
699.00,61.721
700.00,61.785
701.00,61.854
702.00,61.941
703.00,62.013
704.00,62.089
705.00,62.163
706.00,62.228
707.00,62.292
708.00,62.340
709.00,62.395
710.00,62.445
711.00,62.500
712.00,62.552
713.00,62.607
714.00,62.653
715.00,62.714
716.00,62.776
717.00,62.836
718.00,62.899
719.00,62.967
720.00,63.022
721.00,63.056
722.00,63.094
723.00,63.162
724.00,63.211
725.00,63.284
726.00,63.330
727.00,63.384
728.00,63.438
729.00,63.499
730.00,63.569
731.00,63.588
732.00,63.629
733.00,63.671
734.00,63.739
735.00,63.782
736.00,63.844
737.00,63.880
738.00,63.916
739.00,63.945
740.00,63.999
741.00,64.067
742.00,64.130
743.00,64.215
744.00,64.281
745.00,64.310
746.00,64.325
747.00,64.350
748.00,64.392
749.00,64.443
750.00,64.506
751.00,64.570
752.00,64.604
753.00,64.616
754.00,64.656
755.00,64.718
756.00,64.800
757.00,64.851
758.00,64.868
759.00,64.901
760.00,64.931
761.00,64.978
762.00,65.002
763.00,65.047
764.00,65.078
765.00,65.119
766.00,65.119
767.00,65.164
768.00,65.176
769.00,65.252
770.00,65.265
771.00,65.323
772.00,65.355
773.00,65.395
774.00,65.394
775.00,65.409
776.00,65.438
777.00,65.484
778.00,65.500
779.00,65.535
780.00,65.574
781.00,65.626
782.00,65.652
783.00,65.656
784.00,65.675
785.00,65.718
786.00,65.753
787.00,65.779
788.00,65.803
789.00,65.866
790.00,65.915
791.00,65.947
792.00,65.944
793.00,65.954
794.00,65.965
795.00,66.004
796.00,66.031
797.00,66.049
798.00,66.047
799.00,66.059
800.00,66.078
