"ITO_090PER_3.spc - RawData"
"”g’· (nm)","T%"
350.00,19.992
351.00,20.124
352.00,20.319
353.00,20.541
354.00,20.754
355.00,20.961
356.00,21.138
357.00,21.321
358.00,21.510
359.00,21.707
360.00,21.898
361.00,22.108
362.00,22.325
363.00,22.548
364.00,22.744
365.00,22.933
366.00,23.122
367.00,23.313
368.00,23.501
369.00,23.675
370.00,23.868
371.00,24.051
372.00,24.322
373.00,24.589
374.00,24.877
375.00,25.097
376.00,25.323
377.00,25.560
378.00,25.808
379.00,26.076
380.00,26.357
381.00,26.645
382.00,26.942
383.00,27.263
384.00,27.610
385.00,27.954
386.00,28.287
387.00,28.628
388.00,28.951
389.00,29.291
390.00,29.601
391.00,29.924
392.00,30.219
393.00,30.510
394.00,30.791
395.00,31.055
396.00,31.312
397.00,31.549
398.00,31.794
399.00,32.028
400.00,32.255
401.00,32.445
402.00,32.624
403.00,32.799
404.00,32.965
405.00,33.130
406.00,33.284
407.00,33.464
408.00,33.668
409.00,33.876
410.00,34.075
411.00,34.239
412.00,34.409
413.00,34.574
414.00,34.742
415.00,34.899
416.00,35.067
417.00,35.217
418.00,35.369
419.00,35.525
420.00,35.689
421.00,35.848
422.00,35.972
423.00,36.095
424.00,36.201
425.00,36.317
426.00,36.417
427.00,36.526
428.00,36.635
429.00,36.748
430.00,36.878
431.00,36.984
432.00,37.075
433.00,37.121
434.00,37.165
435.00,37.209
436.00,37.260
437.00,37.299
438.00,37.331
439.00,37.364
440.00,37.411
441.00,37.475
442.00,37.582
443.00,37.690
444.00,37.809
445.00,37.901
446.00,37.991
447.00,38.069
448.00,38.160
449.00,38.258
450.00,38.361
451.00,38.455
452.00,38.568
453.00,38.688
454.00,38.816
455.00,38.956
456.00,39.117
457.00,39.278
458.00,39.430
459.00,39.568
460.00,39.704
461.00,39.854
462.00,40.014
463.00,40.182
464.00,40.329
465.00,40.489
466.00,40.655
467.00,40.846
468.00,41.065
469.00,41.282
470.00,41.511
471.00,41.712
472.00,41.931
473.00,42.150
474.00,42.364
475.00,42.593
476.00,42.805
477.00,43.021
478.00,43.210
479.00,43.391
480.00,43.558
481.00,43.721
482.00,43.865
483.00,43.993
484.00,44.143
485.00,44.295
486.00,44.450
487.00,44.582
488.00,44.723
489.00,44.867
490.00,44.999
491.00,45.150
492.00,45.300
493.00,45.455
494.00,45.603
495.00,45.776
496.00,45.959
497.00,46.159
498.00,46.351
499.00,46.557
500.00,46.753
501.00,47.008
502.00,47.283
503.00,47.582
504.00,47.820
505.00,48.040
506.00,48.244
507.00,48.441
508.00,48.652
509.00,48.858
510.00,49.096
511.00,49.330
512.00,49.578
513.00,49.816
514.00,50.045
515.00,50.281
516.00,50.534
517.00,50.796
518.00,51.042
519.00,51.268
520.00,51.493
521.00,51.719
522.00,52.006
523.00,52.306
524.00,52.603
525.00,52.850
526.00,53.090
527.00,53.317
528.00,53.530
529.00,53.716
530.00,53.899
531.00,54.080
532.00,54.271
533.00,54.473
534.00,54.669
535.00,54.867
536.00,55.078
537.00,55.300
538.00,55.506
539.00,55.682
540.00,55.855
541.00,56.025
542.00,56.206
543.00,56.381
544.00,56.571
545.00,56.753
546.00,56.936
547.00,57.111
548.00,57.284
549.00,57.451
550.00,57.598
551.00,57.739
552.00,57.888
553.00,58.097
554.00,58.307
555.00,58.508
556.00,58.664
557.00,58.828
558.00,58.977
559.00,59.120
560.00,59.251
561.00,59.371
562.00,59.490
563.00,59.636
564.00,59.827
565.00,60.049
566.00,60.294
567.00,60.557
568.00,60.828
569.00,61.098
570.00,61.376
571.00,61.651
572.00,61.907
573.00,62.103
574.00,62.241
575.00,62.315
576.00,62.345
577.00,62.333
578.00,62.252
579.00,62.133
580.00,61.956
581.00,61.787
582.00,61.600
583.00,61.435
584.00,61.247
585.00,61.098
586.00,60.970
587.00,60.908
588.00,60.853
589.00,60.817
590.00,60.811
591.00,60.829
592.00,60.866
593.00,60.908
594.00,60.957
595.00,61.031
596.00,61.092
597.00,61.160
598.00,61.212
599.00,61.269
600.00,61.313
601.00,61.378
602.00,61.426
603.00,61.486
604.00,61.541
605.00,61.631
606.00,61.715
607.00,61.804
608.00,61.886
609.00,61.993
610.00,62.114
611.00,62.260
612.00,62.391
613.00,62.540
614.00,62.688
615.00,62.840
616.00,62.969
617.00,63.080
618.00,63.189
619.00,63.268
620.00,63.354
621.00,63.437
622.00,63.536
623.00,63.629
624.00,63.713
625.00,63.785
626.00,63.853
627.00,63.864
628.00,63.863
629.00,63.855
630.00,63.914
631.00,63.993
632.00,64.088
633.00,64.181
634.00,64.288
635.00,64.406
636.00,64.522
637.00,64.633
638.00,64.723
639.00,64.800
640.00,64.863
641.00,64.904
642.00,64.939
643.00,64.975
644.00,64.992
645.00,65.013
646.00,65.005
647.00,65.018
648.00,65.017
649.00,65.008
650.00,64.986
651.00,64.962
652.00,64.960
653.00,64.927
654.00,64.890
655.00,64.870
656.00,64.830
657.00,64.801
658.00,64.756
659.00,64.749
660.00,64.758
661.00,64.754
662.00,64.757
663.00,64.771
664.00,64.804
665.00,64.875
666.00,64.958
667.00,65.053
668.00,65.154
669.00,65.246
670.00,65.354
671.00,65.442
672.00,65.541
673.00,65.642
674.00,65.780
675.00,65.849
676.00,65.923
677.00,65.989
678.00,66.122
679.00,66.249
680.00,66.384
681.00,66.525
682.00,66.661
683.00,66.771
684.00,66.867
685.00,66.944
686.00,67.009
687.00,67.074
688.00,67.158
689.00,67.268
690.00,67.291
691.00,67.333
692.00,67.390
693.00,67.562
694.00,67.771
695.00,68.046
696.00,68.306
697.00,68.520
698.00,68.634
699.00,68.757
700.00,68.870
701.00,68.957
702.00,68.990
703.00,68.913
704.00,68.814
705.00,68.711
706.00,68.672
707.00,68.652
708.00,68.647
709.00,68.675
710.00,68.721
711.00,68.790
712.00,68.864
713.00,68.957
714.00,68.963
715.00,68.992
716.00,69.012
717.00,69.113
718.00,69.191
719.00,69.255
720.00,69.318
721.00,69.370
722.00,69.444
723.00,69.525
724.00,69.613
725.00,69.593
726.00,69.558
727.00,69.510
728.00,69.556
729.00,69.600
730.00,69.664
731.00,69.706
732.00,69.769
733.00,69.830
734.00,69.845
735.00,69.813
736.00,69.809
737.00,69.843
738.00,69.916
739.00,69.996
740.00,70.100
741.00,70.216
742.00,70.327
743.00,70.371
744.00,70.401
745.00,70.378
746.00,70.433
747.00,70.472
748.00,70.484
749.00,70.495
750.00,70.534
751.00,70.518
752.00,70.494
753.00,70.442
754.00,70.502
755.00,70.572
756.00,70.623
757.00,70.666
758.00,70.686
759.00,70.662
760.00,70.618
761.00,70.592
762.00,70.671
763.00,70.766
764.00,70.854
765.00,70.930
766.00,71.020
767.00,71.025
768.00,71.003
769.00,70.991
770.00,71.042
771.00,71.124
772.00,71.194
773.00,71.292
774.00,71.259
775.00,71.237
776.00,71.196
777.00,71.283
778.00,71.339
779.00,71.411
780.00,71.344
781.00,71.294
782.00,71.247
783.00,71.347
784.00,71.426
785.00,71.533
786.00,71.627
787.00,71.633
788.00,71.594
789.00,71.531
790.00,71.563
791.00,71.607
792.00,71.674
793.00,71.649
794.00,71.608
795.00,71.574
796.00,71.598
797.00,71.648
798.00,71.641
799.00,71.573
800.00,71.483
